File: backend/events/xrd
89001 2 660858787 eni-370203590 34.138.39.218 21.238.29.51 733 6600 9 8 336016 1725837108 1725838814 ACCEPT FAIL
89002 4 935184423 eni-95288360 40.101.213.76 45.24.220.127 1021 47165 2 8 5350714 1725826235 1725834084 ACCEPT OK
89003 5 468693067 eni-928165645 75.20.125.204 37.63.149.5 78 41430 6 3 6358742 1725828921 1725830845 REJECT OK
89004 4 326537345 eni-230912769 10.193.73.201 79.119.188.210 679 4402 5 0 9551988 1725795192 1725798756 ACCEPT FAIL
89005 0 109684458 eni-233266345 26.129.254.205 53.193.122.94 562 61258 6 10 5986138 1725797200 1725802252 REJECT FAIL
89006 3 826204842 eni-1014105885 222.103.130.45 236.135.28.145 649 26567 2 8 5070940 1725852610 1725859730 ACCEPT FAIL
89007 2 284044098 eni-500692634 173.23.48.172 211.237.148.219 634 13124 1 6 2069200 1725833544 1725838132 ACCEPT OK
89008 4 129736121 eni-536277844 160.11.87.121 33.190.132.250 71 86479 10 6 4499199 1725835774 1725840146 ACCEPT FAIL
89009 0 457862183 eni-399934330 135.25.241.123 25.39.180.31 112 73890 0 1 7512297 1725864609 1725868044 REJECT FAIL
89010 5 940356657 eni-306515672 151.78.180.207 14.65.135.206 457 22692 4 2 3299417 1725818855 1725818914 REJECT OK
89011 5 523729045 eni-687382730 85.111.1.148 165.160.73.185 32 24184 7 10 7319945 1725853595 1725855167 REJECT OK
89012 5 113430745 eni-221969184 199.1.121.66 122.8.78.52 993 46079 4 0 3094190 1725806459 1725807688 ACCEPT FAIL
89013 5 717997966 eni-963965730 88.109.65.112 185.212.179.108 899 15315 4 3 192317 1725839606 1725847743 REJECT FAIL
89014 1 780468238 eni-425684870 13.194.47.179 118.33.163.210 625 44807 8 3 3048268 1725851441 1725860512 ACCEPT OK
89015 5 20381235 eni-504678087 101.22.117.232 231.235.255.25 605 99058 1 7 5192059 1725858755 1725868427 ACCEPT OK
89016 3 898162384 eni-967528819 39.247.232.198 223.71.35.104 38 42947 5 10 7464120 1725794322 1725804137 REJECT OK
89017 1 487203509 eni-510372466 252.120.223.37 121.194.211.215 743 58051 8 1 8489498 1725804249 1725813609 REJECT FAIL
89018 1 281260084 eni-258338367 201.9.39.249 252.157.151.210 29 47833 8 4 4328995 1725862280 1725865098 ACCEPT FAIL
89019 3 435844745 eni-40570036 102.134.27.216 250.27.224.142 101 59535 1 2 6810310 1725805628 1725810863 REJECT FAIL
89020 5 1025752037 eni-993400737 4.145.212.194 26.37.74.104 621 94173 0 7 6360254 1725811273 1725815760 ACCEPT FAIL
89021 3 277574764 eni-612156106 106.1.33.51 151.49.98.167 942 30740 5 7 1749060 1725809656 1725818419 REJECT FAIL
89022 3 574494332 eni-689372350 80.54.212.101 174.209.26.188 802 82556 4 3 6922330 1725835436 1725844210 ACCEPT OK
89023 2 555077948 eni-1017920471 137.34.176.194 146.94.227.77 80 92611 5 8 5972013 1725831638 1725837791 ACCEPT OK
89024 1 3899089 eni-859279058 143.198.46.118 184.107.102.40 625 67450 7 3 5269038 1725799216 1725802412 REJECT OK
89025 4 978218457 eni-559384654 240.223.166.162 120.73.114.153 735 61117 3 6 6246666 1725838206 1725845470 ACCEPT OK
89026 4 386880686 eni-671734644 81.130.18.153 170.121.31.43 515 66894 2 8 2695920 1725854038 1725863669 ACCEPT OK
89027 5 718681350 eni-830488925 39.56.145.0 103.34.82.71 273 41747 3 1 1648530 1725784250 1725785630 ACCEPT FAIL
89028 1 653718715 eni-1023691738 211.228.155.214 95.85.82.174 323 97698 10 8 4782939 1725828552 1725830094 ACCEPT OK
89029 5 336343729 eni-422088050 7.95.64.202 196.231.10.196 875 57710 8 6 8605969 1725821093 1725828392 REJECT FAIL
89030 0 892066488 eni-884125694 8.31.76.60 128.16.55.192 452 6095 0 7 1782489 1725827412 1725834543 ACCEPT OK
89031 1 403976467 eni-208146493 235.61.179.186 9.46.73.136 81 67238 10 2 10243506 1725793596 1725799894 REJECT OK
89032 5 878274531 eni-725436322 141.46.26.117 172.162.155.64 955 13296 1 5 3483398 1725866001 1725875600 ACCEPT OK
89033 0 708272080 eni-790214317 85.247.46.231 40.85.73.53 287 25631 9 0 4994314 1725866112 1725869067 ACCEPT FAIL
89034 0 135553502 eni-1013720782 179.141.127.36 236.242.49.153 539 38369 10 3 429786 1725787165 1725794222 REJECT OK
89035 0 788668159 eni-441510248 94.245.230.18 0.33.129.85 748 52163 4 1 7666900 1725800702 1725808309 ACCEPT FAIL
89036 5 890388033 eni-294487022 222.48.175.171 170.200.170.233 58 18207 2 1 1487888 1725815619 1725818158 REJECT OK
89037 2 717462282 eni-1018956592 241.53.138.185 182.166.172.50 802 53146 9 9 9242570 1725794690 1725799692 REJECT OK
89038 5 125336381 eni-980060210 139.28.107.49 110.44.9.68 970 89549 10 4 7477583 1725831077 1725839241 REJECT FAIL
89039 4 680023943 eni-124296454 157.177.1.5 163.127.105.93 141 58208 10 10 2122109 1725803832 1725810060 REJECT OK
89040 2 217843905 eni-306738392 86.194.41.32 27.57.119.67 84 59521 9 6 331130 1725865130 1725875095 REJECT FAIL
89041 4 10017142 eni-4520897 38.110.202.239 183.7.18.77 206 26654 7 6 10077182 1725845090 1725854951 ACCEPT FAIL
89042 0 907374105 eni-52703151 99.42.191.80 249.0.123.75 272 49840 2 7 2997569 1725842373 1725843637 ACCEPT FAIL
89043 3 920400746 eni-1009634347 15.33.117.130 59.50.181.102 372 97766 2 8 5810762 1725809065 1725819023 ACCEPT OK
89044 1 970461744 eni-96753113 9.99.232.93 2.107.117.34 892 92134 1 0 8193352 1725842232 1725843884 REJECT OK
89045 3 772241339 eni-919596950 121.243.34.238 144.47.152.127 776 56888 8 1 2517397 1725839976 1725845604 ACCEPT OK
89046 4 804278990 eni-587312434 227.140.145.209 108.85.163.139 976 54429 6 3 6890188 1725860224 1725861281 ACCEPT FAIL
89047 5 16993382 eni-702781901 5.203.28.245 193.203.184.14 855 21465 2 7 8220644 1725851908 1725855439 ACCEPT OK
89048 2 726704528 eni-478838241 203.171.197.111 38.43.246.4 920 86357 10 7 4802673 1725802723 1725803525 REJECT OK
89049 0 170728537 eni-818812862 45.166.43.88 19.151.214.234 372 71840 2 3 5340145 1725841706 1725845499 ACCEPT OK
89050 1 685715275 eni-355303190 161.153.196.66 194.46.236.59 102 52555 5 7 8656217 1725807313 1725809884 ACCEPT FAIL
89051 3 987783458 eni-2452037 205.222.242.243 83.84.241.108 643 88172 4 8 2955873 1725830011 1725833282 REJECT OK
89052 4 216694157 eni-111718401 113.245.236.93 38.210.242.247 274 17108 3 7 6428550 1725797083 1725797328 ACCEPT OK
89053 1 946278962 eni-239679202 242.238.170.75 66.148.80.158 326 4094 10 10 4587541 1725783541 1725792448 ACCEPT FAIL
89054 2 460920419 eni-813212877 125.79.191.176 51.97.80.147 413 2512 4 8 3052295 1725781165 1725782149 ACCEPT OK
89055 3 46119129 eni-887818190 27.107.59.30 65.168.113.139 799 101945 10 9 9430314 1725791906 1725798351 REJECT OK
89056 4 333425962 eni-518351933 216.243.157.219 217.113.40.22 601 53548 5 5 2819404 1725798223 1725807761 ACCEPT FAIL
89057 1 893055950 eni-864104513 217.108.136.48 44.128.242.241 536 75532 7 7 4523557 1725860693 1725865647 ACCEPT FAIL
89058 3 634501242 eni-787723554 152.60.0.84 27.204.181.186 828 87392 5 4 2752690 1725823102 1725825121 ACCEPT OK
89059 4 865419252 eni-393785736 182.202.232.217 173.82.210.197 902 7774 4 4 6292586 1725817740 1725823437 REJECT OK
89060 5 377779031 eni-123250028 158.206.146.67 67.13.75.111 603 73931 5 8 7623837 1725792412 1725798135 ACCEPT FAIL
89061 2 645894458 eni-121773629 254.177.15.127 27.214.243.105 132 29510 9 2 2571669 1725864272 1725868632 REJECT OK
89062 3 976377620 eni-522951667 192.249.165.85 202.155.198.97 220 38747 10 7 600198 1725829216 1725830454 REJECT FAIL
89063 3 514078412 eni-174191288 106.128.60.178 202.214.81.146 649 42522 1 8 7964598 1725812298 1725821984 REJECT FAIL
89064 4 943971234 eni-199274408 207.128.187.226 185.33.125.141 716 96119 4 6 4067751 1725821744 1725830068 REJECT OK
89065 0 818262649 eni-644825030 41.173.102.124 9.220.235.85 848 90385 6 10 332228 1725814343 1725814451 REJECT FAIL
89066 4 715323729 eni-466060183 233.228.92.165 81.187.114.252 394 2050 9 3 5187647 1725811062 1725820307 REJECT OK
89067 1 876717627 eni-410899613 30.87.218.119 31.254.122.62 977 87581 4 6 2383752 1725793885 1725799667 ACCEPT FAIL
89068 0 616194391 eni-973735858 43.50.56.93 207.35.130.69 953 351 2 8 2087993 1725858628 1725864961 ACCEPT OK
89069 4 360607312 eni-171083094 97.134.95.164 224.10.185.77 808 91288 4 1 4064952 1725834369 1725835361 ACCEPT OK
89070 3 324979287 eni-688466183 182.176.179.128 203.138.213.61 762 71886 2 10 1197556 1725844745 1725847753 REJECT FAIL
89071 4 941938966 eni-302488361 224.128.219.250 196.118.199.127 990 72529 5 10 4300652 1725825507 1725828811 ACCEPT OK
89072 4 834527120 eni-834058441 129.237.39.182 250.204.85.41 276 95330 5 9 6283973 1725806455 1725814604 ACCEPT FAIL
89073 0 283592260 eni-484737513 183.174.232.253 222.150.238.221 501 26631 1 10 265726 1725786566 1725790652 REJECT FAIL
89074 3 393485686 eni-952792688 122.220.61.110 111.185.24.126 849 61057 4 8 861481 1725833598 1725841678 REJECT OK
89075 3 382830998 eni-828124332 103.59.148.7 70.62.115.56 586 38423 4 0 939535 1725831587 1725841021 REJECT FAIL
89076 0 553802610 eni-414888382 75.206.30.90 90.131.83.88 179 52206 4 7 4359895 1725848105 1725851748 REJECT FAIL
89077 1 531051851 eni-1044555110 177.129.136.122 174.97.12.151 521 19640 6 4 10220721 1725821177 1725828928 REJECT FAIL
89078 5 526930296 eni-767877063 161.150.65.245 229.122.238.23 539 87057 4 7 6381869 1725788846 1725793676 REJECT OK
89079 5 614111034 eni-790825468 8.88.159.60 133.55.147.160 710 66862 10 10 7624485 1725810272 1725818690 REJECT OK
89080 5 622547298 eni-112429335 225.124.135.152 19.106.145.234 661 4320 0 1 5379042 1725786340 1725791690 REJECT FAIL
89081 1 106069960 eni-405577098 254.60.227.220 8.137.130.63 932 86384 2 5 4493463 1725866220 1725867555 ACCEPT OK
89082 4 523180808 eni-479881955 25.27.127.32 25.77.201.240 286 58015 7 0 6593289 1725818626 1725821248 REJECT FAIL
89083 4 732685891 eni-569877285 186.178.94.96 26.232.211.169 508 40001 6 3 6143773 1725839858 1725845567 ACCEPT FAIL
89084 0 26055053 eni-910804269 109.179.122.60 100.112.4.8 1006 98009 10 9 6985844 1725849023 1725850353 ACCEPT OK
89085 3 281552190 eni-688008032 88.65.78.221 151.161.104.154 9 3926 9 9 8642025 1725802653 1725810292 REJECT OK
89086 3 868075771 eni-768762434 154.108.226.28 139.2.51.127 740 24692 9 3 9050059 1725828942 1725834746 ACCEPT FAIL
89087 1 846164091 eni-870943114 35.185.202.71 81.223.218.13 875 102302 5 7 5107995 1725841971 1725850295 ACCEPT OK
89088 0 566232042 eni-232655610 255.31.150.246 51.143.126.158 489 4141 6 8 2187141 1725804020 1725809524 ACCEPT FAIL
89089 0 366423051 eni-422208811 81.249.134.4 103.20.232.129 84 75885 0 0 4419531 1725840432 1725842228 REJECT FAIL
89090 5 59165056 eni-374325641 136.26.60.29 76.26.61.22 236 24822 7 1 5607358 1725811682 1725820535 ACCEPT FAIL
89091 1 7694103 eni-984839868 253.189.162.193 10.50.132.105 990 55366 1 0 10036559 1725798538 1725803038 REJECT FAIL
89092 0 291072601 eni-604843144 48.165.159.29 128.138.199.206 1021 68591 3 4 4134135 1725859636 1725866193 ACCEPT FAIL
89093 5 315203880 eni-205282171 55.11.153.175 127.5.53.99 43 44193 5 8 5213468 1725813259 1725821200 ACCEPT FAIL
89094 2 6691921 eni-44058996 73.36.110.134 184.58.169.8 404 11136 3 0 9493664 1725864359 1725865204 ACCEPT OK
89095 5 789002707 eni-808393351 74.104.118.96 204.182.243.219 931 20830 9 10 3815840 1725855773 1725864650 REJECT OK
89096 3 401136406 eni-929190224 242.95.142.17 127.82.35.189 632 26138 7 9 8809508 1725804021 1725812481 ACCEPT FAIL
89097 5 505561527 eni-170159743 225.202.119.137 93.200.216.213 68 30398 7 4 3388830 1725812191 1725813312 ACCEPT FAIL
89098 0 127499104 eni-763880456 138.99.155.124 66.81.239.118 967 82602 5 3 1303214 1725792820 1725795377 ACCEPT FAIL
89099 1 239861444 eni-862720962 227.240.218.58 133.156.81.33 890 22123 0 3 912995 1725803425 1725806970 ACCEPT OK
89100 4 388194093 eni-356523112 95.45.171.237 14.92.220.202 606 973 9 9 7408346 1725866254 1725874740 ACCEPT OK
89101 1 76381925 eni-449843400 98.37.204.214 174.134.250.191 338 40825 4 0 5162200 1725857256 1725864474 ACCEPT FAIL
89102 2 509533936 eni-36059600 11.3.122.191 172.249.151.86 81 15228 7 10 1384184 1725830839 1725839200 ACCEPT OK
89103 4 118588029 eni-669648459 223.8.223.130 115.54.131.60 800 40082 9 8 1375290 1725826718 1725834238 REJECT OK
89104 3 793187101 eni-751800023 254.185.156.95 29.114.96.223 160 17946 3 0 5307960 1725807550 1725811324 ACCEPT OK
89105 0 562837055 eni-542883453 153.41.5.213 99.47.148.26 695 78294 8 5 3450445 1725785254 1725793917 REJECT OK
89106 2 673527619 eni-380250553 219.221.142.134 3.242.7.245 775 86486 2 1 7967585 1725825772 1725827488 REJECT FAIL
89107 4 581787896 eni-832507070 118.244.199.39 250.42.198.48 206 9895 5 8 2135531 1725810757 1725813277 REJECT FAIL
89108 5 15259515 eni-812948946 160.31.162.135 218.107.57.237 544 6649 3 7 9427640 1725838033 1725841449 ACCEPT OK
89109 4 707391210 eni-365468350 19.0.51.233 133.245.108.64 1010 65366 1 2 1302092 1725857478 1725860397 REJECT FAIL
89110 1 861048809 eni-355814396 79.223.154.192 168.222.128.180 300 70184 5 6 2882502 1725818690 1725818745 ACCEPT FAIL
89111 4 551395641 eni-561275425 19.92.214.202 228.95.211.88 698 54720 0 8 9668195 1725786013 1725791765 ACCEPT OK
89112 1 495209873 eni-480978267 114.3.197.195 174.104.248.64 674 78078 5 7 866838 1725817311 1725820860 ACCEPT OK
89113 0 987735205 eni-236163625 54.226.19.40 91.97.209.193 259 42622 9 9 1727035 1725848494 1725850473 REJECT OK
89114 1 225635635 eni-559869179 7.151.0.194 103.18.151.116 969 74444 6 4 8587223 1725812408 1725815798 ACCEPT FAIL
89115 2 416326900 eni-273094781 14.27.133.114 152.164.159.6 911 46912 5 2 6808183 1725837797 1725840449 REJECT FAIL
89116 5 796678975 eni-696733025 220.158.248.208 45.59.254.30 751 8274 8 8 824287 1725853213 1725859998 ACCEPT FAIL
89117 4 1135652 eni-492765001 50.228.49.99 235.57.255.207 393 16506 8 9 8924970 1725811351 1725819922 ACCEPT OK
89118 2 65754292 eni-503995207 188.249.127.139 181.156.216.163 414 67001 3 7 6519685 1725827067 1725832948 ACCEPT FAIL
89119 3 895910619 eni-451724219 253.177.137.143 134.105.73.74 280 44708 8 5 2799 1725837941 1725839072 ACCEPT FAIL
89120 0 402443389 eni-909868981 109.237.2.155 50.145.173.125 704 90637 5 1 6962871 1725784928 1725794199 ACCEPT FAIL
89121 4 703512645 eni-477104647 202.163.140.224 168.107.216.220 989 75078 1 9 5784445 1725838939 1725843861 REJECT FAIL
89122 4 763064519 eni-565895859 11.89.241.254 134.161.30.0 903 39215 1 5 9182208 1725844039 1725851276 ACCEPT OK
89123 1 325902751 eni-644810152 194.66.169.113 119.91.161.5 647 57055 0 7 3768116 1725847598 1725857492 ACCEPT OK
89124 5 575751180 eni-1047400137 115.123.146.225 176.205.38.165 679 56180 5 3 1896839 1725848837 1725858130 ACCEPT FAIL
89125 5 67103197 eni-365223854 232.165.63.245 41.201.62.134 499 51266 5 4 7636121 1725814257 1725817495 REJECT FAIL
89126 4 866284372 eni-450546416 10.240.138.79 158.125.52.115 681 62004 9 4 715087 1725801434 1725806465 ACCEPT FAIL
89127 0 312290818 eni-452034386 80.37.188.60 65.245.179.96 72 31329 3 2 641053 1725858038 1725867059 ACCEPT OK
89128 1 280165914 eni-237252221 36.191.211.101 92.181.53.56 907 48494 6 0 5910602 1725798251 1725802383 REJECT FAIL
89129 0 688699145 eni-113139968 77.49.139.58 114.61.181.66 111 98250 7 7 1324943 1725809740 1725811536 ACCEPT OK
89130 5 196652828 eni-29721259 1.68.218.165 42.21.127.127 20 14052 4 5 1854404 1725797656 1725800954 ACCEPT OK
89131 5 830096059 eni-445875684 48.166.215.108 91.31.39.108 1006 48694 1 0 995224 1725807777 1725816678 REJECT FAIL
89132 1 522448605 eni-939639069 123.234.27.69 252.45.128.106 180 71695 2 5 4728805 1725799474 1725809418 REJECT FAIL
89133 5 665546110 eni-319396282 242.187.109.176 150.15.90.142 247 99217 8 0 3470257 1725859015 1725862461 REJECT FAIL
89134 3 930720434 eni-790071132 242.43.89.220 171.194.76.41 1018 6604 2 1 8551598 1725833292 1725839269 REJECT OK
89135 3 47160141 eni-296709285 120.184.255.173 206.88.33.191 916 8504 7 6 9964788 1725806445 1725807720 ACCEPT FAIL
89136 5 122380473 eni-871778088 77.170.76.50 238.220.99.79 586 44769 1 5 4981340 1725865869 1725875825 REJECT FAIL
89137 1 310389689 eni-664302418 175.122.47.216 238.86.248.12 333 15499 9 3 7540060 1725803866 1725810025 ACCEPT OK
89138 3 1044452632 eni-1008348316 159.9.12.108 85.253.181.160 946 71865 4 9 4077349 1725790662 1725799328 REJECT OK
89139 3 695633467 eni-452795879 54.1.212.236 80.6.15.238 942 10279 8 6 5812764 1725801968 1725811018 ACCEPT FAIL
89140 1 688793389 eni-849420552 230.2.26.246 170.225.158.207 646 29237 7 8 10134800 1725811949 1725812652 REJECT OK
89141 2 802991800 eni-549485666 202.222.182.79 219.218.181.118 892 35973 5 3 7741792 1725791109 1725792432 REJECT OK
89142 4 434621213 eni-939492691 149.45.62.105 60.95.199.119 721 101293 1 10 7622998 1725862938 1725865824 ACCEPT FAIL
89143 5 248098858 eni-906929069 227.127.101.173 239.209.174.252 723 31451 4 9 8975670 1725841372 1725845540 REJECT OK
89144 1 918792134 eni-287548803 233.176.188.118 202.117.151.131 17 74206 1 9 2973642 1725845719 1725849680 ACCEPT FAIL
89145 2 96741360 eni-740242833 186.149.178.187 223.123.93.2 572 85989 6 5 9055268 1725864768 1725865037 ACCEPT FAIL
89146 0 534893108 eni-261560258 68.194.25.13 113.93.176.133 102 24830 8 4 5867649 1725811588 1725812799 ACCEPT OK
89147 5 573224955 eni-1000035351 117.97.170.94 77.6.189.77 444 25471 0 0 110335 1725793650 1725801142 ACCEPT OK
89148 5 87058631 eni-371136360 10.116.131.47 187.127.161.82 209 50553 6 6 1532183 1725859618 1725860680 ACCEPT FAIL
89149 3 338086567 eni-888935917 73.216.80.154 75.131.99.85 270 61014 0 9 9419121 1725820190 1725823158 ACCEPT OK
89150 1 730661564 eni-446482954 63.170.222.70 6.142.31.253 283 20793 2 7 5500565 1725820114 1725823378 REJECT FAIL
89151 2 454913773 eni-567801827 151.119.207.243 106.214.8.83 30 12060 7 10 3733666 1725841899 1725847121 REJECT OK
89152 5 567049383 eni-324967331 171.26.48.229 172.32.242.223 497 79702 6 10 1983068 1725839139 1725848986 REJECT FAIL
89153 0 99534403 eni-916306151 169.14.52.210 75.196.203.183 339 16087 7 5 3260075 1725832385 1725836228 ACCEPT OK
89154 3 640954847 eni-868196495 149.218.155.53 38.166.100.93 860 75434 1 0 7323009 1725825114 1725832676 REJECT FAIL
89155 3 415102890 eni-851191096 40.26.108.4 45.74.151.195 145 19451 10 9 801730 1725789180 1725796732 ACCEPT OK
89156 2 577096997 eni-670899471 195.78.43.97 69.69.73.61 914 80011 1 5 6091706 1725847641 1725849418 ACCEPT FAIL
89157 2 943232235 eni-732140502 18.222.149.167 228.210.57.159 821 23159 10 1 3154051 1725856583 1725862190 REJECT OK
89158 5 638821129 eni-677544850 23.184.43.42 248.39.249.186 551 26239 5 9 8571503 1725817885 1725821542 ACCEPT OK
89159 4 322240638 eni-105617269 216.106.67.87 138.244.16.218 868 95225 8 0 9153115 1725840260 1725842675 REJECT OK
89160 0 266206619 eni-645311570 204.10.55.6 149.189.201.169 331 56208 9 8 10070520 1725804531 1725813032 REJECT OK
89161 3 195327113 eni-313966014 224.23.136.94 12.118.201.140 702 15833 10 5 4226005 1725839598 1725840637 REJECT FAIL
89162 1 247765225 eni-106484259 226.51.43.58 207.238.254.217 667 50454 10 8 10078180 1725787806 1725795544 REJECT OK
89163 2 302377582 eni-837620619 23.52.215.251 69.254.118.230 202 46544 6 5 2678329 1725859099 1725860029 REJECT FAIL
89164 5 371497029 eni-86851913 100.38.62.213 167.11.37.208 117 96648 0 9 4747172 1725795951 1725804536 ACCEPT OK
89165 3 907396279 eni-408244826 8.216.54.122 236.85.2.92 2 98837 10 3 6479029 1725838201 1725846640 ACCEPT FAIL
89166 0 910904739 eni-46632072 181.201.12.109 173.46.120.117 848 62386 2 4 872965 1725815462 1725819542 REJECT OK
89167 5 761292809 eni-238094754 121.12.240.216 150.83.49.184 579 54804 5 8 2758045 1725849205 1725856881 REJECT OK
89168 1 459016050 eni-902722991 100.53.88.165 191.175.181.126 208 101747 5 10 9611523 1725844444 1725846862 REJECT OK
89169 2 1013302360 eni-566691150 70.244.235.210 140.179.109.100 599 67967 9 3 3600373 1725839717 1725839910 REJECT FAIL
89170 3 680994290 eni-112261020 3.118.72.35 149.28.26.182 664 50378 7 6 2757147 1725789135 1725795842 ACCEPT OK
89171 1 125088632 eni-837123115 55.202.211.233 151.109.81.91 337 66480 10 8 4759535 1725787127 1725793193 REJECT FAIL
89172 2 285914420 eni-586953668 86.27.215.229 114.89.148.244 473 43042 0 3 8082207 1725827259 1725835765 ACCEPT FAIL
89173 2 235830270 eni-209568576 177.195.123.141 197.10.161.128 239 31185 1 10 5991482 1725855873 1725860225 REJECT FAIL
89174 2 592503615 eni-194793181 184.135.184.147 0.119.129.108 474 8064 0 3 4501933 1725813764 1725821397 ACCEPT FAIL
89175 1 916559993 eni-552360393 31.111.71.197 144.242.247.76 160 9041 6 6 7752169 1725801357 1725802316 REJECT OK
89176 0 39823104 eni-279360607 152.108.40.160 206.68.175.223 585 73697 8 9 279243 1725802354 1725812321 ACCEPT FAIL
89177 5 336016572 eni-920668129 31.192.120.227 143.30.94.196 837 3250 5 3 9331605 1725806732 1725814463 REJECT OK
89178 3 223344693 eni-881479157 187.66.167.236 143.65.12.132 63 35090 10 8 2136739 1725781243 1725787098 ACCEPT OK
89179 0 382647951 eni-620614550 138.10.42.13 20.58.153.3 256 12468 6 6 1386731 1725864140 1725867116 REJECT FAIL
89180 5 649919259 eni-982364068 173.186.167.232 23.214.146.11 1017 5209 6 0 6544914 1725816453 1725825895 REJECT FAIL
89181 2 432759342 eni-888401464 96.8.177.51 189.79.17.46 385 58803 10 4 9568266 1725793919 1725796268 ACCEPT OK
89182 5 681306518 eni-236289291 5.13.40.70 221.152.53.162 108 23380 8 7 5366453 1725822133 1725827881 REJECT OK
89183 5 838995702 eni-374421776 216.161.145.80 182.144.209.113 794 91703 6 4 3226634 1725825066 1725831433 REJECT FAIL
89184 0 214234188 eni-222038297 187.50.172.130 237.202.180.64 754 71506 1 4 2786359 1725807772 1725814644 REJECT FAIL
89185 5 199527570 eni-550943894 120.150.96.177 41.16.94.124 960 80864 0 0 8996708 1725780346 1725785488 REJECT OK
89186 2 115772438 eni-700618903 151.114.253.132 255.163.107.150 807 11239 7 8 10150387 1725839818 1725842892 ACCEPT FAIL
89187 5 693308589 eni-632549137 225.214.102.145 246.46.30.165 355 31397 6 0 312758 1725811559 1725817294 REJECT OK
89188 0 887489044 eni-771416285 32.162.100.117 44.203.62.205 171 54060 10 2 7854579 1725800522 1725808431 REJECT OK
89189 0 430994747 eni-620402866 227.8.198.170 101.216.181.44 523 46811 10 4 9280162 1725784449 1725790647 REJECT FAIL
89190 5 287900331 eni-783237267 236.74.43.7 180.87.81.0 175 60536 8 6 2976327 1725782783 1725791562 REJECT FAIL
89191 5 700581658 eni-488115246 91.224.105.158 83.45.175.194 503 500 3 5 3971853 1725840837 1725849367 ACCEPT FAIL
89192 0 954161811 eni-37308894 219.70.5.191 68.87.199.70 5 63999 9 5 9739104 1725829506 1725837551 REJECT OK
89193 1 461697181 eni-829808813 49.188.166.52 24.48.89.131 276 83572 4 2 174721 1725855014 1725860015 REJECT OK
89194 4 700913192 eni-991459731 201.168.52.13 176.25.194.49 141 86444 4 10 1845271 1725815034 1725822310 ACCEPT OK
89195 4 893889792 eni-973855626 148.163.115.3 129.216.197.128 639 9309 3 7 9466956 1725831488 1725838041 ACCEPT FAIL
89196 2 391408514 eni-627452681 170.197.233.146 77.88.184.66 646 51676 8 6 8408892 1725851971 1725856210 ACCEPT FAIL
89197 3 984201581 eni-171293855 158.241.167.45 160.25.52.7 459 5454 0 6 1565210 1725815766 1725821303 REJECT FAIL
89198 3 305256492 eni-933096466 214.113.149.144 89.180.141.66 12 64481 5 4 5578239 1725836658 1725839285 REJECT OK
89199 3 581138020 eni-120068908 112.217.250.239 140.49.192.197 688 26529 1 4 9264309 1725851160 1725860856 REJECT OK
89200 2 760883102 eni-357669964 74.244.172.24 122.216.136.239 76 53155 3 10 3972532 1725830495 1725836238 ACCEPT FAIL